reward_today,future_reward,delay,trials.thisRepN,trials.thisTrialN,trials.thisN,trials.thisIndex,thisRow.t,notes,trial.started,fixation.started,text.started,key_resp.started,fixation.stopped,trial.stopped,key_resp.keys,key_resp.rt,key_resp.duration,participant,session,date,expName,psychopyVersion,frameRate,expStart,
40,55,62,0,0,0,3,0.3113020999880973,,0.057602399989264086,0.3113020999880973,1.0113825000007637,1.0113825000007637,1.3113069999963045,9.81529229998705,t,8.729564000008395,None,083230,001,2024-11-21_14h10.09.913,delay_discounting,2024.1.5,None,2024-11-21 14h10.24.478664 +0530,
27,50,21,0,1,1,2,9.85864659998333,,9.844311399996514,9.85864659998333,10.843435499991756,10.843435499991756,10.860022899985779,15.914295700000366,l,5.068405199999688,None,083230,001,2024-11-21_14h10.09.913,delay_discounting,2024.1.5,None,2024-11-21 14h10.24.478664 +0530,
67,75,119,0,2,2,5,15.941857099998742,,15.914733099984005,15.941857099998742,16.92609339999035,16.92609339999035,16.9433616999886,19.696123600006104,t,2.756676499993773,None,083230,001,2024-11-21_14h10.09.913,delay_discounting,2024.1.5,None,2024-11-21 14h10.24.478664 +0530,
78,80,162,0,3,3,6,19.709914200007915,,19.696882199990796,19.709914200007915,20.709057400003076,20.709057400003076,20.709057400003076,24.278526999987662,l,3.5564712999912445,None,083230,001,2024-11-21_14h10.09.913,delay_discounting,2024.1.5,None,2024-11-21 14h10.24.478664 +0530,
49,60,89,0,4,4,4,24.292463099991437,,24.279028299992206,24.292463099991437,25.291556299984222,25.291556299984222,25.291556299984222,27.761510099982843,t,2.453616500017233,None,083230,001,2024-11-21_14h10.09.913,delay_discounting,2024.1.5,None,2024-11-21 14h10.24.478664 +0530,
11,30,7,0,5,5,0,27.77494229999138,,27.762165599997388,27.77494229999138,28.775337099999888,28.775337099999888,28.775337099999888,31.828311699995538,l,3.048324000003049,None,083230,001,2024-11-21_14h10.09.913,delay_discounting,2024.1.5,None,2024-11-21 14h10.24.478664 +0530,
15,35,13,0,6,6,1,31.84081100000185,,31.828773999994155,31.84081100000185,32.84226020000642,32.84226020000642,32.84226020000642,35.344855400006054,l,2.4958989000006113,None,083230,001,2024-11-21_14h10.09.913,delay_discounting,2024.1.5,None,2024-11-21 14h10.24.478664 +0530,
67,75,119,1,0,7,5,35.35686629998963,,35.34533399998327,35.35686629998963,36.357597199996235,36.357597199996235,36.357597199996235,38.510207899991656,t,2.1511132000014186,None,083230,001,2024-11-21_14h10.09.913,delay_discounting,2024.1.5,None,2024-11-21 14h10.24.478664 +0530,
11,30,7,1,1,8,0,38.52407489999314,,38.510825200006366,38.52407489999314,39.52395020000404,39.52395020000404,39.52395020000404,43.576173799985554,l,4.043868699984159,None,083230,001,2024-11-21_14h10.09.913,delay_discounting,2024.1.5,None,2024-11-21 14h10.24.478664 +0530,
15,35,13,1,2,9,1,43.589952399983304,,43.57663460000185,43.589952399983304,44.589419399999315,44.589419399999315,44.589419399999315,48.742707400000654,l,4.150576400017599,None,083230,001,2024-11-21_14h10.09.913,delay_discounting,2024.1.5,None,2024-11-21 14h10.24.478664 +0530,
40,55,62,1,3,10,3,48.75514980001026,,48.743376099999296,48.75514980001026,49.838537900010124,49.838537900010124,49.838537900010124,52.042871399986325,t,2.1980328999925405,None,083230,001,2024-11-21_14h10.09.913,delay_discounting,2024.1.5,None,2024-11-21 14h10.24.478664 +0530,
78,80,162,1,4,11,6,52.13703230000101,,52.0433689999918,52.13703230000101,53.05437480000546,53.05437480000546,53.13812419999158,55.65795639998396,t,2.597376499994425,None,083230,001,2024-11-21_14h10.09.913,delay_discounting,2024.1.5,None,2024-11-21 14h10.24.478664 +0530,
49,60,89,1,5,12,4,55.671221600001445,,55.65840640000533,55.671221600001445,56.67087510001147,56.67087510001147,56.67087510001147,59.04128299999866,t,2.366238299990073,None,083230,001,2024-11-21_14h10.09.913,delay_discounting,2024.1.5,None,2024-11-21 14h10.24.478664 +0530,
27,50,21,1,6,13,2,59.05392700000084,,59.041993599996204,59.05392700000084,60.05392179999035,60.05392179999035,60.05392179999035,63.2075310999935,l,3.1457874000188895,None,083230,001,2024-11-21_14h10.09.913,delay_discounting,2024.1.5,None,2024-11-21 14h10.24.478664 +0530,
15,35,13,2,0,14,1,63.220537599991076,,63.20793959998991,63.220537599991076,64.2195861999935,64.2195861999935,64.2195861999935,65.94020969999838,l,1.7091049999871757,None,083230,001,2024-11-21_14h10.09.913,delay_discounting,2024.1.5,None,2024-11-21 14h10.24.478664 +0530,
27,50,21,2,1,15,2,65.95361679999041,,65.94067489998997,65.95361679999041,66.95391999999993,66.95391999999993,66.95391999999993,69.18956279999111,t,2.2340924000018276,None,083230,001,2024-11-21_14h10.09.913,delay_discounting,2024.1.5,None,2024-11-21 14h10.24.478664 +0530,
40,55,62,2,2,16,3,69.20322560000932,,69.19020919999457,69.20322560000932,70.2032840999891,70.2032840999891,70.2032840999891,72.25637089999509,t,2.0465908000187483,None,083230,001,2024-11-21_14h10.09.913,delay_discounting,2024.1.5,None,2024-11-21 14h10.24.478664 +0530,
11,30,7,2,3,17,0,72.26864500000374,,72.25678440000047,72.26864500000374,73.26880270001129,73.26880270001129,73.26880270001129,74.97253920001094,l,1.6991867999895476,None,083230,001,2024-11-21_14h10.09.913,delay_discounting,2024.1.5,None,2024-11-21 14h10.24.478664 +0530,
49,60,89,2,4,18,4,74.98577939998358,,74.97310709999874,74.98577939998358,75.98517490000813,75.98517490000813,75.98517490000813,77.43794609999168,l,1.4413743000186514,None,083230,001,2024-11-21_14h10.09.913,delay_discounting,2024.1.5,None,2024-11-21 14h10.24.478664 +0530,
78,80,162,2,5,19,6,77.45142080000369,,77.43835360000958,77.45142080000369,78.45259249999071,78.45259249999071,78.45259249999071,80.45494530000724,t,1.9944014999782667,None,083230,001,2024-11-21_14h10.09.913,delay_discounting,2024.1.5,None,2024-11-21 14h10.24.478664 +0530,
67,75,119,2,6,20,5,80.46828719999758,,80.45534059999045,80.46828719999758,81.46770589999505,81.46770589999505,81.46770589999505,83.8050447999849,t,2.324894999997923,None,083230,001,2024-11-21_14h10.09.913,delay_discounting,2024.1.5,None,2024-11-21 14h10.24.478664 +0530,
67,75,119,3,0,21,5,83.81819570000516,,83.80556189999334,83.81819570000516,84.81768169999123,84.81768169999123,84.81768169999123,86.08795180000016,t,1.2686196000140626,None,083230,001,2024-11-21_14h10.09.913,delay_discounting,2024.1.5,None,2024-11-21 14h10.24.478664 +0530,
11,30,7,3,1,22,0,86.10049290000461,,86.08837819998735,86.10049290000461,87.10066259998712,87.10066259998712,87.10066259998712,88.2370641999878,l,1.1339898000005633,None,083230,001,2024-11-21_14h10.09.913,delay_discounting,2024.1.5,None,2024-11-21 14h10.24.478664 +0530,
15,35,13,3,2,23,1,88.24998759999289,,88.23763879999751,88.24998759999289,89.25054730000556,89.25054730000556,89.25054730000556,90.1878798000107,l,0.9238529000140261,None,083230,001,2024-11-21_14h10.09.913,delay_discounting,2024.1.5,None,2024-11-21 14h10.24.478664 +0530,
78,80,162,3,3,24,6,90.23355040000752,,90.18831209998461,90.23355040000752,91.20046319998801,91.20046319998801,91.23335779999616,92.63626239998848,t,1.4273112999799196,None,083230,001,2024-11-21_14h10.09.913,delay_discounting,2024.1.5,None,2024-11-21 14h10.24.478664 +0530,
27,50,21,3,4,25,2,92.74957039998844,,92.63674769998761,92.74957039998844,93.6494504000002,93.6494504000002,93.75110880000284,94.35341449998668,l,0.6922534999903291,None,083230,001,2024-11-21_14h10.09.913,delay_discounting,2024.1.5,None,2024-11-21 14h10.24.478664 +0530,
40,55,62,3,5,26,3,94.3662561000092,,94.35383889998775,94.3662561000092,95.36581769998884,95.36581769998884,95.36581769998884,96.33696950000012,t,0.9640821000211872,None,083230,001,2024-11-21_14h10.09.913,delay_discounting,2024.1.5,None,2024-11-21 14h10.24.478664 +0530,
49,60,89,3,6,27,4,96.41494379998767,,96.33741589999408,96.41494379998767,97.34887339998386,97.34887339998386,97.41612579999492,98.06929059998947,t,0.7178870000061579,None,083230,001,2024-11-21_14h10.09.913,delay_discounting,2024.1.5,None,2024-11-21 14h10.24.478664 +0530,
78,80,162,4,0,28,6,98.08260580000933,,98.0698027999897,98.08260580000933,99.08208409999497,99.08208409999497,99.08208409999497,101.05179369999678,t,1.9662300999916624,None,083230,001,2024-11-21_14h10.09.913,delay_discounting,2024.1.5,None,2024-11-21 14h10.24.478664 +0530,
67,75,119,4,1,29,5,101.08124769999995,,101.05225489998702,101.08124769999995,102.06568820000393,102.06568820000393,102.08176199998707,102.81820469998638,t,0.7501022000215016,None,083230,001,2024-11-21_14h10.09.913,delay_discounting,2024.1.5,None,2024-11-21 14h10.24.478664 +0530,
49,60,89,4,2,30,4,102.83270259998972,,102.81862840001122,102.83270259998972,103.83183889999054,103.83183889999054,103.83183889999054,104.56802760000573,t,0.7269272999837995,None,083230,001,2024-11-21_14h10.09.913,delay_discounting,2024.1.5,None,2024-11-21 14h10.24.478664 +0530,
11,30,7,4,3,31,0,104.58140090000234,,104.5686066999915,104.58140090000234,105.58230869998806,105.58230869998806,105.58230869998806,107.45131840000977,l,1.8613697999971919,None,083230,001,2024-11-21_14h10.09.913,delay_discounting,2024.1.5,None,2024-11-21 14h10.24.478664 +0530,
40,55,62,4,4,32,3,107.46424909998314,,107.451871199999,107.46424909998314,108.46459580000374,108.46459580000374,108.46459580000374,110.01717310000095,t,1.5433364000055008,None,083230,001,2024-11-21_14h10.09.913,delay_discounting,2024.1.5,None,2024-11-21 14h10.24.478664 +0530,
15,35,13,4,5,33,1,110.0306614000001,,110.01760880000074,110.0306614000001,111.03073440000298,111.03073440000298,111.03073440000298,112.00090519999503,l,0.9650181999895722,None,083230,001,2024-11-21_14h10.09.913,delay_discounting,2024.1.5,None,2024-11-21 14h10.24.478664 +0530,
27,50,21,4,6,34,2,112.01385129999835,,112.0016071999853,112.01385129999835,113.01373420000891,113.01373420000891,113.01373420000891,114.30084199999692,l,1.281594399973983,None,083230,001,2024-11-21_14h10.09.913,delay_discounting,2024.1.5,None,2024-11-21 14h10.24.478664 +0530,
67,75,119,5,0,35,5,114.3139463000116,,114.30141089999233,114.3139463000116,115.31364290000056,115.31364290000056,115.31364290000056,116.06777530000545,t,0.749015999987023,None,083230,001,2024-11-21_14h10.09.913,delay_discounting,2024.1.5,None,2024-11-21 14h10.24.478664 +0530,
40,55,62,5,1,36,3,116.08015819999855,,116.06821269998909,116.08015819999855,117.08003380001173,117.08003380001173,117.08003380001173,117.59991679998348,t,0.5099362999899313,None,083230,001,2024-11-21_14h10.09.913,delay_discounting,2024.1.5,None,2024-11-21 14h10.24.478664 +0530,
78,80,162,5,2,37,6,117.6129413000017,,117.6004122000013,117.6129413000017,118.61291759999585,118.61291759999585,118.61291759999585,119.28370989998803,t,0.6654096999845933,None,083230,001,2024-11-21_14h10.09.913,delay_discounting,2024.1.5,None,2024-11-21 14h10.24.478664 +0530,
11,30,7,5,3,38,0,119.29634989998885,,119.28416499999003,119.29634989998885,120.29636300000129,120.29636300000129,120.29636300000129,121.00035499999649,l,0.6904102000116836,None,083230,001,2024-11-21_14h10.09.913,delay_discounting,2024.1.5,None,2024-11-21 14h10.24.478664 +0530,
49,60,89,5,4,39,4,121.01296309998725,,121.00078870001016,121.01296309998725,122.0141156000027,122.0141156000027,122.0141156000027,123.74922399999923,t,1.730699799983995,None,083230,001,2024-11-21_14h10.09.913,delay_discounting,2024.1.5,None,2024-11-21 14h10.24.478664 +0530,
15,35,13,5,5,40,1,123.84469110000646,,123.74979269999312,123.84469110000646,124.76258320000488,124.76258320000488,124.84625360000064,126.39966510000522,l,1.6333013999974355,None,083230,001,2024-11-21_14h10.09.913,delay_discounting,2024.1.5,None,2024-11-21 14h10.24.478664 +0530,
27,50,21,5,6,41,2,126.41186649998417,,126.40019389998633,126.41186649998417,127.41193169998587,127.41193169998587,127.41193169998587,128.34901519998675,l,0.9329377000103705,None,083230,001,2024-11-21_14h10.09.913,delay_discounting,2024.1.5,None,2024-11-21 14h10.24.478664 +0530,
49,60,89,6,0,42,4,128.46139139999286,,128.34946619998664,128.46139139999286,129.36156699998537,129.36156699998537,129.46186929999385,130.1164027999912,t,0.7509511999960523,None,083230,001,2024-11-21_14h10.09.913,delay_discounting,2024.1.5,None,2024-11-21 14h10.24.478664 +0530,
15,35,13,6,1,43,1,130.12833559999126,,130.1168871000118,130.12833559999126,131.12780839999323,131.12780839999323,131.12780839999323,132.79787149999174,t,1.6582721000013407,None,083230,001,2024-11-21_14h10.09.913,delay_discounting,2024.1.5,None,2024-11-21 14h10.24.478664 +0530,
78,80,162,6,2,44,6,132.81163019998348,,132.79834209999535,132.81163019998348,133.8117549000017,133.8117549000017,133.8117549000017,135.19812300000922,t,1.3729515000013635,None,083230,001,2024-11-21_14h10.09.913,delay_discounting,2024.1.5,None,2024-11-21 14h10.24.478664 +0530,
27,50,21,6,3,45,2,135.2113090000057,,135.19858419999946,135.2113090000057,136.2115491000004,136.2115491000004,136.2115491000004,137.6986099999922,l,1.4822514000115916,None,083230,001,2024-11-21_14h10.09.913,delay_discounting,2024.1.5,None,2024-11-21 14h10.24.478664 +0530,
67,75,119,6,4,46,5,137.71065980001003,,137.69905100000324,137.71065980001003,138.71075490000658,138.71075490000658,138.71075490000658,140.6643553999893,t,1.9522178999905009,None,083230,001,2024-11-21_14h10.09.913,delay_discounting,2024.1.5,None,2024-11-21 14h10.24.478664 +0530,
40,55,62,6,5,47,3,140.67647559999023,,140.66476240000338,140.67647559999023,141.67694659999688,141.67694659999688,141.67694659999688,144.97958499999368,t,3.2929879000002984,None,083230,001,2024-11-21_14h10.09.913,delay_discounting,2024.1.5,None,2024-11-21 14h10.24.478664 +0530,
11,30,7,6,6,48,0,144.9935157999862,,144.9800366999989,144.9935157999862,145.9929043999873,145.9929043999873,145.9929043999873,148.21328019999783,l,2.217378799978178,None,083230,001,2024-11-21_14h10.09.913,delay_discounting,2024.1.5,None,2024-11-21 14h10.24.478664 +0530,
40,55,62,7,0,49,3,148.22637580000446,,148.2137059000088,148.22637580000446,149.22553679998964,149.22553679998964,149.22553679998964,150.09587459999602,t,0.864465199992992,None,083230,001,2024-11-21_14h10.09.913,delay_discounting,2024.1.5,None,2024-11-21 14h10.24.478664 +0530,
15,35,13,7,1,50,1,150.10938730000635,,150.09633979998762,150.10938730000635,151.10911879999912,151.10911879999912,151.10911879999912,152.3619686999882,t,1.2435563000035472,None,083230,001,2024-11-21_14h10.09.913,delay_discounting,2024.1.5,None,2024-11-21 14h10.24.478664 +0530,
49,60,89,7,2,51,4,152.3760529999854,,152.3624104000046,152.3760529999854,153.37530730001163,153.37530730001163,153.37530730001163,154.26231550000375,t,0.8853627999778837,None,083230,001,2024-11-21_14h10.09.913,delay_discounting,2024.1.5,None,2024-11-21 14h10.24.478664 +0530,
11,30,7,7,3,52,0,154.34050550000393,,154.26273389998823,154.34050550000393,155.276208700001,155.276208700001,155.3424345999956,159.86184810000123,l,4.583355099981418,None,083230,001,2024-11-21_14h10.09.913,delay_discounting,2024.1.5,None,2024-11-21 14h10.24.478664 +0530,
78,80,162,7,4,53,6,159.87452489999123,,159.86233050000737,159.87452489999123,160.8742695999972,160.8742695999972,160.8742695999972,161.8777737999917,t,0.9983449999999721,None,083230,001,2024-11-21_14h10.09.913,delay_discounting,2024.1.5,None,2024-11-21 14h10.24.478664 +0530,
27,50,21,7,5,54,2,161.89090999998734,,161.87824920000276,161.89090999998734,162.89180340000894,162.89180340000894,162.89180340000894,163.79463580000447,l,0.8996487999975216,None,083230,001,2024-11-21_14h10.09.913,delay_discounting,2024.1.5,None,2024-11-21 14h10.24.478664 +0530,
67,75,119,7,6,55,5,163.80718249999336,,163.79504880000604,163.80718249999336,164.80743990000337,164.80743990000337,164.80743990000337,166.32685300000594,t,1.503273700014688,None,083230,001,2024-11-21_14h10.09.913,delay_discounting,2024.1.5,None,2024-11-21 14h10.24.478664 +0530,
15,35,13,8,0,56,1,166.3400268999976,,166.32733440000447,166.3400268999976,167.34068220001063,167.34068220001063,167.34068220001063,168.26117089999025,l,0.9172852000046987,None,083230,001,2024-11-21_14h10.09.913,delay_discounting,2024.1.5,None,2024-11-21 14h10.24.478664 +0530,
49,60,89,8,1,57,4,168.37253709998913,,168.2617237000086,168.37253709998913,169.27382760000182,169.27382760000182,169.37414199998602,170.7106450999854,t,1.4257530000177212,None,083230,001,2024-11-21_14h10.09.913,delay_discounting,2024.1.5,None,2024-11-21 14h10.24.478664 +0530,
40,55,62,8,2,58,3,170.7232864999969,,170.71120859999792,170.7232864999969,171.7242401999829,171.7242401999829,171.7242401999829,172.42610869999044,t,0.6873103999823797,None,083230,001,2024-11-21_14h10.09.913,delay_discounting,2024.1.5,None,2024-11-21 14h10.24.478664 +0530,
27,50,21,8,3,59,2,172.43964339999366,,172.42652670000098,172.43964339999366,173.44013129998348,173.44013129998348,173.44013129998348,174.3938771999965,l,0.952539899997646,None,083230,001,2024-11-21_14h10.09.913,delay_discounting,2024.1.5,None,2024-11-21 14h10.24.478664 +0530,
67,75,119,8,4,60,5,174.40602530000615,,174.3943217000051,174.40602530000615,175.40612639999017,175.40612639999017,175.40612639999017,177.04318519998924,t,1.6356133999943268,None,083230,001,2024-11-21_14h10.09.913,delay_discounting,2024.1.5,None,2024-11-21 14h10.24.478664 +0530,
11,30,7,8,5,61,0,177.05540750001092,,177.04366150000715,177.05540750001092,178.05582159999176,178.05582159999176,178.05582159999176,178.90939939999953,l,0.845684900006745,None,083230,001,2024-11-21_14h10.09.913,delay_discounting,2024.1.5,None,2024-11-21 14h10.24.478664 +0530,
78,80,162,8,6,62,6,179.00471209999523,,178.9098670000094,179.00471209999523,179.92253069998696,179.92253069998696,180.00599109998439,181.02583090000553,t,1.0963627999881282,None,083230,001,2024-11-21_14h10.09.913,delay_discounting,2024.1.5,None,2024-11-21 14h10.24.478664 +0530,
27,50,21,9,0,63,2,181.03824629998417,,181.0262323000061,181.03824629998417,182.03776300000027,182.03776300000027,182.03776300000027,183.95857940000133,l,1.9049881999962963,None,083230,001,2024-11-21_14h10.09.913,delay_discounting,2024.1.5,None,2024-11-21 14h10.24.478664 +0530,
67,75,119,9,1,64,5,183.9715744999994,,183.95898860000307,183.9715744999994,184.97164509998402,184.97164509998402,184.97164509998402,187.19120070000645,t,2.207205000013346,None,083230,001,2024-11-21_14h10.09.913,delay_discounting,2024.1.5,None,2024-11-21 14h10.24.478664 +0530,
40,55,62,9,2,65,3,187.2040491999942,,187.19173240000964,187.2040491999942,188.20403039999655,188.20403039999655,188.20403039999655,189.1248576999933,t,0.9175779999932274,None,083230,001,2024-11-21_14h10.09.913,delay_discounting,2024.1.5,None,2024-11-21 14h10.24.478664 +0530,
49,60,89,9,3,66,4,189.1372015000088,,189.1253965999931,189.1372015000088,190.13722830000916,190.13722830000916,190.13722830000916,190.72403529999428,t,0.5719793000025675,None,083230,001,2024-11-21_14h10.09.913,delay_discounting,2024.1.5,None,2024-11-21 14h10.24.478664 +0530,
78,80,162,9,4,67,6,190.73771429999033,,190.72448109998368,190.73771429999033,191.737209599989,191.737209599989,191.737209599989,192.7575943999982,t,1.0054371999867726,None,083230,001,2024-11-21_14h10.09.913,delay_discounting,2024.1.5,None,2024-11-21 14h10.24.478664 +0530,
11,30,7,9,5,68,0,192.77140019999933,,192.75813259999268,192.77140019999933,193.77035179999075,193.77035179999075,193.7866226999904,194.50702399999136,l,0.7255139999906532,None,083230,001,2024-11-21_14h10.09.913,delay_discounting,2024.1.5,None,2024-11-21 14h10.24.478664 +0530,
15,35,13,9,6,69,1,194.52021550000063,,194.5074670999893,194.52021550000063,195.51962629999616,195.51962629999616,195.51962629999616,197.20665340000414,l,1.6696895000059158,None,083230,001,2024-11-21_14h10.09.913,delay_discounting,2024.1.5,None,2024-11-21 14h10.24.478664 +0530,
11,30,7,10,0,70,0,197.21989919999032,,197.20711409999058,197.21989919999032,198.21960849998868,198.21960849998868,198.21960849998868,199.22352070000488,l,0.9890440999879502,None,083230,001,2024-11-21_14h10.09.913,delay_discounting,2024.1.5,None,2024-11-21 14h10.24.478664 +0530,
27,50,21,10,1,71,2,199.23595999999088,,199.2240862000035,199.23595999999088,200.23616319999564,200.23616319999564,200.23616319999564,201.02329929999541,l,0.7798603999835905,None,083230,001,2024-11-21_14h10.09.913,delay_discounting,2024.1.5,None,2024-11-21 14h10.24.478664 +0530,
15,35,13,10,2,72,1,201.40143289999105,,201.0237683999876,201.40143289999105,202.03594050000538,202.03594050000538,202.40236099998583,202.68976390000898,t,0.6525899000116624,None,083230,001,2024-11-21_14h10.09.913,delay_discounting,2024.1.5,None,2024-11-21 14h10.24.478664 +0530,
49,60,89,10,3,73,4,202.70231870000134,,202.69025479999254,202.70231870000134,203.7026404000062,203.7026404000062,203.7026404000062,204.43869780001114,l,0.7239266000105999,None,083230,001,2024-11-21_14h10.09.913,delay_discounting,2024.1.5,None,2024-11-21 14h10.24.478664 +0530,
67,75,119,10,4,74,5,204.453216599999,,204.43924599999445,204.453216599999,205.45188740000594,205.45188740000594,205.46911780000664,207.0555647999863,t,1.588630899990676,None,083230,001,2024-11-21_14h10.09.913,delay_discounting,2024.1.5,None,2024-11-21 14h10.24.478664 +0530,
40,55,62,10,5,75,3,207.06847599998582,,207.056024599995,207.06847599998582,208.06807249999838,208.06807249999838,208.06807249999838,213.3879608999996,t,5.313687900023069,None,083230,001,2024-11-21_14h10.09.913,delay_discounting,2024.1.5,None,2024-11-21 14h10.24.478664 +0530,
78,80,162,10,6,76,6,213.4005147999851,,213.38838399999077,213.4005147999851,214.4007236000034,214.4007236000034,214.4007236000034,214.855315599998,t,0.4524488000024576,None,083230,001,2024-11-21_14h10.09.913,delay_discounting,2024.1.5,None,2024-11-21 14h10.24.478664 +0530,
27,50,21,11,0,77,2,214.94956909999019,,214.85571949998848,214.94956909999019,215.8685892999929,215.8685892999929,215.9514174000069,216.8868589999911,l,1.0075909000006504,None,083230,001,2024-11-21_14h10.09.913,delay_discounting,2024.1.5,None,2024-11-21 14h10.24.478664 +0530,
11,30,7,11,1,78,0,216.90038820001064,,216.88727879998623,216.90038820001064,217.90090310000232,217.90090310000232,217.90090310000232,220.50481969999964,l,2.5870666000118945,None,083230,001,2024-11-21_14h10.09.913,delay_discounting,2024.1.5,None,2024-11-21 14h10.24.478664 +0530,
78,80,162,11,2,79,6,220.51699999999255,,220.50522530000308,220.51699999999255,221.51668329999666,221.51668329999666,221.51668329999666,222.17087959998753,t,0.6443519000022206,None,083230,001,2024-11-21_14h10.09.913,delay_discounting,2024.1.5,None,2024-11-21 14h10.24.478664 +0530,
15,35,13,11,3,80,1,222.18302880000556,,222.1713124999951,222.18302880000556,223.1831688999955,223.1831688999955,223.1831688999955,224.11964299998363,t,0.9294822000083514,None,083230,001,2024-11-21_14h10.09.913,delay_discounting,2024.1.5,None,2024-11-21 14h10.24.478664 +0530,
49,60,89,11,4,81,4,224.1329555999837,,224.12009959999705,224.1329555999837,225.1336711999902,225.1336711999902,225.1336711999902,225.92070019998937,t,0.7779548999969848,None,083230,001,2024-11-21_14h10.09.913,delay_discounting,2024.1.5,None,2024-11-21 14h10.24.478664 +0530,
67,75,119,11,5,82,5,225.9332793999929,,225.9213186999841,225.9332793999929,226.9325850000023,226.9325850000023,226.9325850000023,228.00341060000937,l,1.0558884000056423,None,083230,001,2024-11-21_14h10.09.913,delay_discounting,2024.1.5,None,2024-11-21 14h10.24.478664 +0530,
40,55,62,11,6,83,3,228.01597819998278,,228.0039012999914,228.01597819998278,229.01582659999258,229.01582659999258,229.03244189999532,229.8860730000015,t,0.8669822000083514,None,083230,001,2024-11-21_14h10.09.913,delay_discounting,2024.1.5,None,2024-11-21 14h10.24.478664 +0530,
15,35,13,12,0,84,1,229.8987921999942,,229.8865441000089,229.8987921999942,230.8983930000104,230.8983930000104,230.8983930000104,232.3527166999993,l,1.4377835000050254,None,083230,001,2024-11-21_14h10.09.913,delay_discounting,2024.1.5,None,2024-11-21 14h10.24.478664 +0530,
27,50,21,12,1,85,2,232.3657702000055,,232.3533502999926,232.3657702000055,233.36499820000608,233.36499820000608,233.36499820000608,234.5525348999945,t,1.176690399996005,None,083230,001,2024-11-21_14h10.09.913,delay_discounting,2024.1.5,None,2024-11-21 14h10.24.478664 +0530,
11,30,7,12,2,86,0,234.56508989998838,,234.5532518000109,234.56508989998838,235.56489340000553,235.56489340000553,235.56489340000553,236.9518337000045,l,1.3828475000045728,None,083230,001,2024-11-21_14h10.09.913,delay_discounting,2024.1.5,None,2024-11-21 14h10.24.478664 +0530,
78,80,162,12,3,87,6,236.96484249999048,,236.95240919999196,236.96484249999048,237.96454809998977,237.96454809998977,237.96454809998977,239.5010132000025,t,1.5283434000157285,None,083230,001,2024-11-21_14h10.09.913,delay_discounting,2024.1.5,None,2024-11-21 14h10.24.478664 +0530,
49,60,89,12,4,88,4,239.51406990000396,,239.50149900000542,239.51406990000396,240.5137192000111,240.5137192000111,240.5137192000111,245.8344705000054,t,5.31879660001141,None,083230,001,2024-11-21_14h10.09.913,delay_discounting,2024.1.5,None,2024-11-21 14h10.24.478664 +0530,
67,75,119,12,5,89,5,245.8467302999925,,245.83493789998465,245.8467302999925,246.84736220000195,246.84736220000195,246.84736220000195,249.2995848999999,t,2.450866800005315,None,083230,001,2024-11-21_14h10.09.913,delay_discounting,2024.1.5,None,2024-11-21 14h10.24.478664 +0530,
40,55,62,12,6,90,3,249.31336709999596,,249.30011849998846,249.31336709999596,250.31271329999436,250.31271329999436,250.31271329999436,251.03334470000118,t,0.7078465999802575,None,083230,001,2024-11-21_14h10.09.913,delay_discounting,2024.1.5,None,2024-11-21 14h10.24.478664 +0530,
15,35,13,13,0,91,1,251.04616239998722,,251.03392429999076,251.04616239998722,252.04619490000186,252.04619490000186,252.04619490000186,252.94931639998686,l,0.8936763000092469,None,083230,001,2024-11-21_14h10.09.913,delay_discounting,2024.1.5,None,2024-11-21 14h10.24.478664 +0530,
67,75,119,13,1,92,5,252.96252070000628,,252.94975890000933,252.96252070000628,253.9624916999892,253.9624916999892,253.9624916999892,254.48328929999843,t,0.515121000004001,None,083230,001,2024-11-21_14h10.09.913,delay_discounting,2024.1.5,None,2024-11-21 14h10.24.478664 +0530,
78,80,162,13,2,93,6,254.4955653999932,,254.48372779999045,254.4955653999932,255.84487790000276,255.84487790000276,255.84487790000276,256.6990186999901,t,0.8394013000070117,None,083230,001,2024-11-21_14h10.09.913,delay_discounting,2024.1.5,None,2024-11-21 14h10.24.478664 +0530,
27,50,21,13,3,94,2,256.7123881999869,,256.699500799994,256.7123881999869,257.71182269998826,257.71182269998826,257.71182269998826,258.4493186000036,l,0.7309477000089828,None,083230,001,2024-11-21_14h10.09.913,delay_discounting,2024.1.5,None,2024-11-21 14h10.24.478664 +0530,
40,55,62,13,4,95,3,258.54410569998436,,258.44972489998327,258.54410569998436,259.462534899998,259.462534899998,259.5449370999995,260.3650675000099,t,0.8930875000078231,None,083230,001,2024-11-21_14h10.09.913,delay_discounting,2024.1.5,None,2024-11-21 14h10.24.478664 +0530,
11,30,7,13,5,96,0,260.37812040001154,,260.3656159999955,260.37812040001154,261.37796199999866,261.37796199999866,261.37796199999866,262.5312016000098,t,1.150954399985494,None,083230,001,2024-11-21_14h10.09.913,delay_discounting,2024.1.5,None,2024-11-21 14h10.24.478664 +0530,
49,60,89,13,6,97,4,262.5445177000074,,262.5317378999898,262.5445177000074,263.6268318000075,263.6268318000075,263.6268318000075,264.615293299983,t,0.981609499984188,None,083230,001,2024-11-21_14h10.09.913,delay_discounting,2024.1.5,None,2024-11-21 14h10.24.478664 +0530,
40,55,62,14,0,98,3,264.627837899985,,264.6158196000033,264.627837899985,265.6277729999856,265.6277729999856,265.6277729999856,266.14785760000814,t,0.5068481000198517,None,083230,001,2024-11-21_14h10.09.913,delay_discounting,2024.1.5,None,2024-11-21 14h10.24.478664 +0530,
15,35,13,14,1,99,1,266.1609549999994,,266.1484152000048,266.1609549999994,267.1607282999903,267.1607282999903,267.1607282999903,268.13164760000654,l,0.9671441999962553,None,083230,001,2024-11-21_14h10.09.913,delay_discounting,2024.1.5,None,2024-11-21 14h10.24.478664 +0530,
27,50,21,14,2,100,2,268.1449908000068,,268.13208919999306,268.1449908000068,269.14395930001047,269.14395930001047,269.14395930001047,270.41406619999907,l,1.2620377999846824,None,083230,001,2024-11-21_14h10.09.913,delay_discounting,2024.1.5,None,2024-11-21 14h10.24.478664 +0530,
11,30,7,14,3,101,0,270.4271124000079,,270.4144890999887,270.4271124000079,271.42680749998544,271.42680749998544,271.42680749998544,273.16387299998314,l,1.734749199997168,None,083230,001,2024-11-21_14h10.09.913,delay_discounting,2024.1.5,None,2024-11-21 14h10.24.478664 +0530,
67,75,119,14,4,102,5,273.17682200000854,,273.16439299998456,273.17682200000854,274.17657209999743,274.17657209999743,274.17657209999743,275.19707769999513,t,1.0123087000101805,None,083230,001,2024-11-21_14h10.09.913,delay_discounting,2024.1.5,None,2024-11-21 14h10.24.478664 +0530,
78,80,162,14,5,103,6,275.20962410001084,,275.19753380000475,275.20962410001084,276.2099695999932,276.2099695999932,276.2099695999932,279.01380600000266,t,2.795977000001585,None,083230,001,2024-11-21_14h10.09.913,delay_discounting,2024.1.5,None,2024-11-21 14h10.24.478664 +0530,
49,60,89,14,6,104,4,279.02588100000867,,279.0142446999962,279.02588100000867,280.0256801999931,280.0256801999931,280.0256801999931,283.8959227000014,t,3.8633502000011504,None,083230,001,2024-11-21_14h10.09.913,delay_discounting,2024.1.5,None,2024-11-21 14h10.24.478664 +0530,
