reward_today,future_reward,delay,trials.thisRepN,trials.thisTrialN,trials.thisN,trials.thisIndex,thisRow.t,notes,trial.started,fixation.started,text.started,key_resp.started,fixation.stopped,trial.stopped,key_resp.keys,key_resp.rt,key_resp.duration,participant,session,date,expName,psychopyVersion,frameRate,expStart,
40,55,62,0,0,0,3,0.06845419999444857,,0.03043829998932779,0.06845419999444857,1.0034144999808632,1.0034144999808632,1.069922199996654,4.375741099996958,t,3.357603399985237,None,304216,001,2024-11-21_14h26.38.076,delay_discounting,2024.1.5,None,2024-11-21 14h26.42.902443 +0530,
15,35,13,0,1,1,1,4.402008399978513,,4.376486499997554,4.402008399978513,5.385909399978118,5.385909399978118,5.402554999978747,6.473148099990794,l,1.0733050999988336,None,304216,001,2024-11-21_14h26.38.076,delay_discounting,2024.1.5,None,2024-11-21 14h26.42.902443 +0530,
11,30,7,0,2,2,0,6.485686899977736,,6.47380319997319,6.485686899977736,7.486691999976756,7.486691999976756,7.486691999976756,7.990793999982998,l,0.500327899993863,None,304216,001,2024-11-21_14h26.38.076,delay_discounting,2024.1.5,None,2024-11-21 14h26.42.902443 +0530,
78,80,162,0,3,3,6,8.00277539997478,,7.991202399978647,8.00277539997478,9.002842599991709,9.002842599991709,9.002842599991709,9.455615399987437,t,0.4513427999918349,None,304216,001,2024-11-21_14h26.38.076,delay_discounting,2024.1.5,None,2024-11-21 14h26.42.902443 +0530,
49,60,89,0,4,4,4,9.46942159999162,,9.456078899995191,9.46942159999162,10.46862489997875,10.46862489997875,10.46862489997875,11.089086799998768,t,0.6036012999829836,None,304216,001,2024-11-21_14h26.38.076,delay_discounting,2024.1.5,None,2024-11-21 14h26.42.902443 +0530,
67,75,119,0,5,5,5,11.10250409998116,,11.089566999988165,11.10250409998116,12.101632799982326,12.101632799982326,12.101632799982326,12.589539899985539,t,0.4780202000110876,None,304216,001,2024-11-21_14h26.38.076,delay_discounting,2024.1.5,None,2024-11-21 14h26.42.902443 +0530,
27,50,21,0,6,6,2,12.601967800001148,,12.590028099977644,12.601967800001148,13.602057499985676,13.602057499985676,13.602057499985676,14.055105999985244,l,0.444802800018806,None,304216,001,2024-11-21_14h26.38.076,delay_discounting,2024.1.5,None,2024-11-21 14h26.42.902443 +0530,
11,30,7,1,0,7,0,14.068568599992432,,14.055568499985384,14.068568599992432,15.068149599974276,15.068149599974276,15.068149599974276,15.555437199975131,l,0.4712483000184875,None,304216,001,2024-11-21_14h26.38.076,delay_discounting,2024.1.5,None,2024-11-21 14h26.42.902443 +0530,
49,60,89,1,1,8,4,15.5681096999906,,15.555953899980523,15.5681096999906,16.5687528999988,16.5687528999988,16.5687528999988,17.07172469998477,t,0.4980375000159256,None,304216,001,2024-11-21_14h26.38.076,delay_discounting,2024.1.5,None,2024-11-21 14h26.42.902443 +0530,
27,50,21,1,2,9,2,17.08483089998481,,17.072253399994224,17.08483089998481,18.084393099998124,18.084393099998124,18.084393099998124,18.488336099981098,t,0.39074149998486973,None,304216,001,2024-11-21_14h26.38.076,delay_discounting,2024.1.5,None,2024-11-21 14h26.42.902443 +0530,
67,75,119,1,3,10,5,18.501298199989833,,18.488778599974466,18.501298199989833,19.501240599987796,19.501240599987796,19.501240599987796,19.971162499976344,t,0.45603400000254624,None,304216,001,2024-11-21_14h26.38.076,delay_discounting,2024.1.5,None,2024-11-21 14h26.42.902443 +0530,
40,55,62,1,4,11,3,19.984628899983363,,19.97155930000008,19.984628899983363,20.985095999989426,20.985095999989426,20.985095999989426,21.571407099982025,t,0.579176200000802,None,304216,001,2024-11-21_14h26.38.076,delay_discounting,2024.1.5,None,2024-11-21 14h26.42.902443 +0530,
15,35,13,1,5,12,1,21.584316099993885,,21.57189419999486,21.584316099993885,22.58438259997638,22.58438259997638,22.58438259997638,23.08784089999972,l,0.49207900001783855,None,304216,001,2024-11-21_14h26.38.076,delay_discounting,2024.1.5,None,2024-11-21 14h26.42.902443 +0530,
78,80,162,1,6,13,6,23.100308799999766,,23.08839399999124,23.100308799999766,24.100499899999704,24.100499899999704,24.100499899999704,24.503640099981567,t,0.3946451999945566,None,304216,001,2024-11-21_14h26.38.076,delay_discounting,2024.1.5,None,2024-11-21 14h26.42.902443 +0530,
40,55,62,2,0,14,3,24.517543499998283,,24.504156499984674,24.517543499998283,25.517196399974637,25.517196399974637,25.517196399974637,26.038054899981944,t,0.5194421000196598,None,304216,001,2024-11-21_14h26.38.076,delay_discounting,2024.1.5,None,2024-11-21 14h26.42.902443 +0530,
49,60,89,2,1,15,4,26.050117099977797,,26.038616999983788,26.050117099977797,27.05007639998803,27.05007639998803,27.05007639998803,27.553860199986957,t,0.49910809998982586,None,304216,001,2024-11-21_14h26.38.076,delay_discounting,2024.1.5,None,2024-11-21 14h26.42.902443 +0530,
67,75,119,2,2,16,5,27.566441099974327,,27.55431249999674,27.566441099974327,28.965287499973783,28.965287499973783,28.965287499973783,30.120053599996027,t,1.1498744999989867,None,304216,001,2024-11-21_14h26.38.076,delay_discounting,2024.1.5,None,2024-11-21 14h26.42.902443 +0530,
15,35,13,2,3,17,1,30.1326719999779,,30.120518199983053,30.1326719999779,31.132999599998584,31.132999599998584,31.132999599998584,32.085516799998004,l,0.9407068000000436,None,304216,001,2024-11-21_14h26.38.076,delay_discounting,2024.1.5,None,2024-11-21 14h26.42.902443 +0530,
11,30,7,2,4,18,0,32.09951020000153,,32.08593529998325,32.09951020000153,33.099048899981426,33.099048899981426,33.099048899981426,33.51998279997497,l,0.4045971000159625,None,304216,001,2024-11-21_14h26.38.076,delay_discounting,2024.1.5,None,2024-11-21 14h26.42.902443 +0530,
27,50,21,2,5,19,2,33.5324007999734,,33.52054189998307,33.5324007999734,34.53255399997579,34.53255399997579,34.53255399997579,34.96992069997941,t,0.4240224000241142,None,304216,001,2024-11-21_14h26.38.076,delay_discounting,2024.1.5,None,2024-11-21 14h26.42.902443 +0530,
78,80,162,2,6,20,6,34.983623299980536,,34.9703584999952,34.983623299980536,35.98276799998712,35.98276799998712,35.9990928999905,36.50241009998717,t,0.5070194999861997,None,304216,001,2024-11-21_14h26.38.076,delay_discounting,2024.1.5,None,2024-11-21 14h26.42.902443 +0530,
49,60,89,3,0,21,4,36.515207299991744,,36.50315249999403,36.515207299991744,37.515239200001815,37.515239200001815,37.515239200001815,37.90197979999357,t,0.3710080000164453,None,304216,001,2024-11-21_14h26.38.076,delay_discounting,2024.1.5,None,2024-11-21 14h26.42.902443 +0530,
40,55,62,3,1,22,3,37.91540259998874,,37.902454499999294,37.91540259998874,38.91512049999437,38.91512049999437,38.91512049999437,39.269741399999475,t,0.35325709998141974,None,304216,001,2024-11-21_14h26.38.076,delay_discounting,2024.1.5,None,2024-11-21 14h26.42.902443 +0530,
78,80,162,3,2,23,6,39.281451299990295,,39.27021099999547,39.281451299990295,40.28208169998834,40.28208169998834,40.28208169998834,40.66829199998756,t,0.36992699999245815,None,304216,001,2024-11-21_14h26.38.076,delay_discounting,2024.1.5,None,2024-11-21 14h26.42.902443 +0530,
11,30,7,3,3,24,0,40.68215809998219,,40.66888439998729,40.68215809998219,41.681760499981465,41.681760499981465,41.681760499981465,42.03543869999703,l,0.3418911999906413,None,304216,001,2024-11-21_14h26.38.076,delay_discounting,2024.1.5,None,2024-11-21 14h26.42.902443 +0530,
15,35,13,3,4,25,1,42.13085929999943,,42.03599599999143,42.13085929999943,43.04794759998913,43.04794759998913,43.13222020000103,43.53597430000082,l,0.4784767999954056,None,304216,001,2024-11-21_14h26.38.076,delay_discounting,2024.1.5,None,2024-11-21 14h26.42.902443 +0530,
27,50,21,3,5,26,2,43.54825989998062,,43.53651019997778,43.54825989998062,44.54787379998015,44.54787379998015,44.54787379998015,44.93455909998738,l,0.3799300999962725,None,304216,001,2024-11-21_14h26.38.076,delay_discounting,2024.1.5,None,2024-11-21 14h26.42.902443 +0530,
67,75,119,3,6,27,5,44.94804989997647,,44.9350138999871,44.94804989997647,45.94781439998769,45.94781439998769,45.94781439998769,46.30069779997575,t,0.3421238999872003,None,304216,001,2024-11-21_14h26.38.076,delay_discounting,2024.1.5,None,2024-11-21 14h26.42.902443 +0530,
27,50,21,4,0,28,2,46.314968699996825,,46.301136599999154,46.314968699996825,47.31420429999707,47.31420429999707,47.31420429999707,47.801138399983756,l,0.47962669999105856,None,304216,001,2024-11-21_14h26.38.076,delay_discounting,2024.1.5,None,2024-11-21 14h26.42.902443 +0530,
49,60,89,4,1,29,4,47.81446609998238,,47.801799399981974,47.81446609998238,48.81433239998296,48.81433239998296,48.81433239998296,49.101164199993946,t,0.2853583999967668,None,304216,001,2024-11-21_14h26.38.076,delay_discounting,2024.1.5,None,2024-11-21 14h26.42.902443 +0530,
11,30,7,4,2,30,0,49.11430099999416,,49.10158409998985,49.11430099999416,50.11424149997765,50.11424149997765,50.11424149997765,50.61834259997704,l,0.49364009997225367,None,304216,001,2024-11-21_14h26.38.076,delay_discounting,2024.1.5,None,2024-11-21 14h26.42.902443 +0530,
40,55,62,4,3,31,3,50.63051779998932,,50.61894819998997,50.63051779998932,51.63065409997944,51.63065409997944,51.63065409997944,51.93363259997568,t,0.28983949997927994,None,304216,001,2024-11-21_14h26.38.076,delay_discounting,2024.1.5,None,2024-11-21 14h26.42.902443 +0530,
67,75,119,4,4,32,5,51.946415899990825,,51.93425589997787,51.946415899990825,52.94630129999132,52.94630129999132,52.94630129999132,53.38320179999573,t,0.4302808999782428,None,304216,001,2024-11-21_14h26.38.076,delay_discounting,2024.1.5,None,2024-11-21 14h26.42.902443 +0530,
78,80,162,4,5,33,6,53.39628599997377,,53.38375229999656,53.39628599997377,54.3958786999865,54.3958786999865,54.3958786999865,54.799660299991956,t,0.3893215999996755,None,304216,001,2024-11-21_14h26.38.076,delay_discounting,2024.1.5,None,2024-11-21 14h26.42.902443 +0530,
15,35,13,4,6,34,1,54.8127061999985,,54.800219999975525,54.8127061999985,55.81321449999814,55.81321449999814,55.81321449999814,56.21609349999926,l,0.3887027000018861,None,304216,001,2024-11-21_14h26.38.076,delay_discounting,2024.1.5,None,2024-11-21 14h26.42.902443 +0530,
27,50,21,5,0,35,2,56.229259599989746,,56.21670520000043,56.229259599989746,57.229741399991326,57.229741399991326,57.229741399991326,57.96661889998359,l,0.7253674999810755,None,304216,001,2024-11-21_14h26.38.076,delay_discounting,2024.1.5,None,2024-11-21 14h26.42.902443 +0530,
11,30,7,5,1,36,0,57.97965339999064,,57.967033799999626,57.97965339999064,58.97912659999565,58.97912659999565,58.97912659999565,59.44981120000011,l,0.46376270000473596,None,304216,001,2024-11-21_14h26.38.076,delay_discounting,2024.1.5,None,2024-11-21 14h26.42.902443 +0530,
49,60,89,5,2,37,4,59.52853819998563,,59.45028179997462,59.52853819998563,60.46238139999332,60.46238139999332,60.52943009999581,60.89918670000043,t,0.4230552000226453,None,304216,001,2024-11-21_14h26.38.076,delay_discounting,2024.1.5,None,2024-11-21 14h26.42.902443 +0530,
15,35,13,5,3,38,1,60.91201559998444,,60.899668199999724,60.91201559998444,61.91221239999868,61.91221239999868,61.91221239999868,62.200039099989226,t,0.2796084999863524,None,304216,001,2024-11-21_14h26.38.076,delay_discounting,2024.1.5,None,2024-11-21 14h26.42.902443 +0530,
40,55,62,5,4,39,3,62.21229009999661,,62.20049129999825,62.21229009999661,63.21221919998061,63.21221919998061,63.21221919998061,63.86522409997997,t,0.6477092999848537,None,304216,001,2024-11-21_14h26.38.076,delay_discounting,2024.1.5,None,2024-11-21 14h26.42.902443 +0530,
67,75,119,5,5,40,5,63.878876999981,,63.86562979998416,63.878876999981,64.87854279999738,64.87854279999738,64.87854279999738,65.33214659997611,t,0.4436645999958273,None,304216,001,2024-11-21_14h26.38.076,delay_discounting,2024.1.5,None,2024-11-21 14h26.42.902443 +0530,
78,80,162,5,6,41,6,65.3459082999907,,65.33262599998852,65.3459082999907,66.34531879998394,66.34531879998394,66.34531879998394,66.74931970000034,t,0.39834590000100434,None,304216,001,2024-11-21_14h26.38.076,delay_discounting,2024.1.5,None,2024-11-21 14h26.42.902443 +0530,
27,50,21,6,0,42,2,66.7620211999747,,66.74976849998347,66.7620211999747,67.76178459997755,67.76178459997755,67.76178459997755,68.49866399998427,l,0.7317230000044219,None,304216,001,2024-11-21_14h26.38.076,delay_discounting,2024.1.5,None,2024-11-21 14h26.42.902443 +0530,
49,60,89,6,1,43,4,68.51159839998581,,68.49929899998824,68.51159839998581,69.51155269998708,69.51155269998708,69.51155269998708,70.19837389999884,t,0.679690400022082,None,304216,001,2024-11-21_14h26.38.076,delay_discounting,2024.1.5,None,2024-11-21 14h26.42.902443 +0530,
40,55,62,6,2,44,3,70.2112502999953,,70.19881819997681,70.2112502999953,71.21197759997449,71.21197759997449,71.21197759997449,71.78127029997995,t,0.5617192999925464,None,304216,001,2024-11-21_14h26.38.076,delay_discounting,2024.1.5,None,2024-11-21 14h26.42.902443 +0530,
11,30,7,6,3,45,0,71.79447959997924,,71.78173529999913,71.79447959997924,72.79432089999318,72.79432089999318,72.79432089999318,73.19861079999828,l,0.3954190000076778,None,304216,001,2024-11-21_14h26.38.076,delay_discounting,2024.1.5,None,2024-11-21 14h26.42.902443 +0530,
67,75,119,6,4,46,5,73.21103809998021,,73.19911570000113,73.21103809998021,74.21193749998929,74.21193749998929,74.21193749998929,74.63159849998192,t,0.41030690001207404,None,304216,001,2024-11-21_14h26.38.076,delay_discounting,2024.1.5,None,2024-11-21 14h26.42.902443 +0530,
78,80,162,6,5,47,6,74.64360329997726,,74.63206949998857,74.64360329997726,75.64421239998774,75.64421239998774,75.64421239998774,75.96288300000015,t,0.3112255999876652,None,304216,001,2024-11-21_14h26.38.076,delay_discounting,2024.1.5,None,2024-11-21 14h26.42.902443 +0530,
15,35,13,6,6,48,1,75.97749049999402,,75.9634103999997,75.97749049999402,76.97737349997624,76.97737349997624,76.97737349997624,77.34780019999016,t,0.3652830000210088,None,304216,001,2024-11-21_14h26.38.076,delay_discounting,2024.1.5,None,2024-11-21 14h26.42.902443 +0530,
40,55,62,7,0,49,3,77.36058839998441,,77.34827649997897,77.36058839998441,78.36011539999163,78.36011539999163,78.36011539999163,78.84764579997864,t,0.47517240000888705,None,304216,001,2024-11-21_14h26.38.076,delay_discounting,2024.1.5,None,2024-11-21 14h26.42.902443 +0530,
78,80,162,7,1,50,6,78.85992959997384,,78.84807909998926,78.85992959997384,79.86034799998743,79.86034799998743,79.86034799998743,80.29688979999628,t,0.42152860001078807,None,304216,001,2024-11-21_14h26.38.076,delay_discounting,2024.1.5,None,2024-11-21 14h26.42.902443 +0530,
67,75,119,7,2,51,5,80.31033019997994,,80.29749659998924,80.31033019997994,81.31010360000073,81.31010360000073,81.31010360000073,81.6801456999965,t,0.3652382000000216,None,304216,001,2024-11-21_14h26.38.076,delay_discounting,2024.1.5,None,2024-11-21 14h26.42.902443 +0530,
11,30,7,7,3,52,0,81.69333029998234,,81.68060219998006,81.69333029998234,82.69283749998431,82.69283749998431,82.69283749998431,83.14600559999235,l,0.43792799999937415,None,304216,001,2024-11-21_14h26.38.076,delay_discounting,2024.1.5,None,2024-11-21 14h26.42.902443 +0530,
27,50,21,7,4,53,2,83.15974139998434,,83.1465818999859,83.15974139998434,84.15998239998589,84.15998239998589,84.15998239998589,84.71266549997381,l,0.5388433000189252,None,304216,001,2024-11-21_14h26.38.076,delay_discounting,2024.1.5,None,2024-11-21 14h26.42.902443 +0530,
49,60,89,7,5,54,4,84.72578929999145,,84.71317219999037,84.72578929999145,85.72625489998609,85.72625489998609,85.72625489998609,86.26337419997435,t,0.5352607000095304,None,304216,001,2024-11-21_14h26.38.076,delay_discounting,2024.1.5,None,2024-11-21 14h26.42.902443 +0530,
15,35,13,7,6,55,1,86.2757310999732,,86.26391809998313,86.2757310999732,87.27579149999656,87.27579149999656,87.27579149999656,87.79562499999884,l,0.5086093000136316,None,304216,001,2024-11-21_14h26.38.076,delay_discounting,2024.1.5,None,2024-11-21 14h26.42.902443 +0530,
11,30,7,8,0,56,0,87.8089106999978,,87.79607339997892,87.8089106999978,88.80962590000127,88.80962590000127,88.80962590000127,89.24530789998244,l,0.4272878999763634,None,304216,001,2024-11-21_14h26.38.076,delay_discounting,2024.1.5,None,2024-11-21 14h26.42.902443 +0530,
40,55,62,8,1,57,3,89.25831189999008,,89.24601219999022,89.25831189999008,90.2582900999987,90.2582900999987,90.2582900999987,90.57911569997668,l,0.3152196000155527,None,304216,001,2024-11-21_14h26.38.076,delay_discounting,2024.1.5,None,2024-11-21 14h26.42.902443 +0530,
49,60,89,8,2,58,4,90.59211219998542,,90.57954269999755,90.59211219998542,91.59187639999436,91.59187639999436,91.59187639999436,91.99508069999865,t,0.3986793999793008,None,304216,001,2024-11-21_14h26.38.076,delay_discounting,2024.1.5,None,2024-11-21 14h26.42.902443 +0530,
15,35,13,8,3,59,1,92.00874659998226,,91.99558719998458,92.00874659998226,93.00880260000122,93.00880260000122,93.00880260000122,93.29544519999763,t,0.28388360000099055,None,304216,001,2024-11-21_14h26.38.076,delay_discounting,2024.1.5,None,2024-11-21 14h26.42.902443 +0530,
27,50,21,8,4,60,2,93.30841869997676,,93.29590810000082,93.30841869997676,94.3080591999751,94.3080591999751,94.3080591999751,94.87861269997666,l,0.5625207999837585,None,304216,001,2024-11-21_14h26.38.076,delay_discounting,2024.1.5,None,2024-11-21 14h26.42.902443 +0530,
67,75,119,8,5,61,5,94.97364169999491,,94.87918219997664,94.97364169999491,95.89219549999689,95.89219549999689,95.97584999998799,96.39582399997744,t,0.4911804999865126,None,304216,001,2024-11-21_14h26.38.076,delay_discounting,2024.1.5,None,2024-11-21 14h26.42.902443 +0530,
78,80,162,8,6,62,6,96.40790909997304,,96.39637229999062,96.40790909997304,97.40757449998637,97.40757449998637,97.40757449998637,97.82995189999929,t,0.41222579998429865,None,304216,001,2024-11-21_14h26.38.076,delay_discounting,2024.1.5,None,2024-11-21 14h26.42.902443 +0530,
11,30,7,9,0,63,0,97.84123669998371,,97.83042009998462,97.84123669998371,98.8407021999883,98.8407021999883,98.8407021999883,99.34453639999265,l,0.49173969999537803,None,304216,001,2024-11-21_14h26.38.076,delay_discounting,2024.1.5,None,2024-11-21 14h26.42.902443 +0530,
27,50,21,9,1,64,2,99.35721299998113,,99.34498409999651,99.35721299998113,100.35834119998617,100.35834119998617,100.35834119998617,100.71158849998028,l,0.347383299987996,None,304216,001,2024-11-21_14h26.38.076,delay_discounting,2024.1.5,None,2024-11-21 14h26.42.902443 +0530,
49,60,89,9,2,65,4,100.72371379999095,,100.71213569998508,100.72371379999095,101.72426299998187,101.72426299998187,101.72426299998187,102.1783997999737,t,0.4375827999901958,None,304216,001,2024-11-21_14h26.38.076,delay_discounting,2024.1.5,None,2024-11-21 14h26.42.902443 +0530,
40,55,62,9,3,66,3,102.19041929999366,,102.1789221999934,102.19041929999366,103.19061199997668,103.19061199997668,103.19061199997668,103.82807359998696,t,0.6299290000170004,None,304216,001,2024-11-21_14h26.38.076,delay_discounting,2024.1.5,None,2024-11-21 14h26.42.902443 +0530,
67,75,119,9,4,67,5,103.84029959997861,,103.82858299999498,103.84029959997861,104.84070569998585,104.84070569998585,104.84070569998585,105.24459279997973,t,0.40203629998723045,None,304216,001,2024-11-21_14h26.38.076,delay_discounting,2024.1.5,None,2024-11-21 14h26.42.902443 +0530,
78,80,162,9,5,68,6,105.2571004999918,,105.24500679998891,105.2571004999918,106.25669009998091,106.25669009998091,106.25669009998091,106.59323739999672,t,0.3239897000021301,None,304216,001,2024-11-21_14h26.38.076,delay_discounting,2024.1.5,None,2024-11-21 14h26.42.902443 +0530,
15,35,13,9,6,69,1,106.60678269999335,,106.59448939998401,106.60678269999335,107.60643549999804,107.60643549999804,107.60643549999804,108.12683029999607,l,0.510046900017187,None,304216,001,2024-11-21_14h26.38.076,delay_discounting,2024.1.5,None,2024-11-21 14h26.42.902443 +0530,
40,55,62,10,0,70,3,108.13964809998288,,108.12730669998564,108.13964809998288,109.13993929998833,109.13993929998833,109.13993929998833,109.59356989999651,l,0.4408448999747634,None,304216,001,2024-11-21_14h26.38.076,delay_discounting,2024.1.5,None,2024-11-21 14h26.42.902443 +0530,
27,50,21,10,1,71,2,109.60625349998008,,109.59408459998667,109.60625349998008,110.60540479997871,110.60540479997871,110.60540479997871,111.84237659999053,t,1.2333556000085082,None,304216,001,2024-11-21_14h26.38.076,delay_discounting,2024.1.5,None,2024-11-21 14h26.42.902443 +0530,
15,35,13,10,2,72,1,111.85584579998977,,111.84277579997433,111.85584579998977,112.85721289998037,112.85721289998037,112.85721289998037,113.45974169997498,l,0.5942836999893188,None,304216,001,2024-11-21_14h26.38.076,delay_discounting,2024.1.5,None,2024-11-21 14h26.42.902443 +0530,
78,80,162,10,3,73,6,113.4732758999744,,113.46024339998257,113.4732758999744,114.47188949998235,114.47188949998235,114.48937009999645,115.00928199998452,t,0.5318198999739252,None,304216,001,2024-11-21_14h26.38.076,delay_discounting,2024.1.5,None,2024-11-21 14h26.42.902443 +0530,
11,30,7,10,4,74,0,115.0220139999874,,115.00975159998052,115.0220139999874,116.02178919999278,116.02178919999278,116.02178919999278,116.49110529999598,l,0.4547370999935083,None,304216,001,2024-11-21_14h26.38.076,delay_discounting,2024.1.5,None,2024-11-21 14h26.42.902443 +0530,
67,75,119,10,5,75,5,116.50517819999368,,116.49165159999393,116.50517819999368,117.50566179997986,117.50566179997986,117.50566179997986,118.05964039999526,t,0.5497053999861237,None,304216,001,2024-11-21_14h26.38.076,delay_discounting,2024.1.5,None,2024-11-21 14h26.42.902443 +0530,
49,60,89,10,6,76,4,118.07215369999176,,118.06009769998491,118.07215369999176,119.07144289999269,119.07144289999269,119.07144289999269,119.49193089999608,l,0.4057262999995146,None,304216,001,2024-11-21_14h26.38.076,delay_discounting,2024.1.5,None,2024-11-21 14h26.42.902443 +0530,
49,60,89,11,0,77,4,119.50540619998355,,119.49240749998717,119.50540619998355,120.50537939998321,120.50537939998321,120.50537939998321,120.95880419999594,t,0.44453030001022853,None,304216,001,2024-11-21_14h26.38.076,delay_discounting,2024.1.5,None,2024-11-21 14h26.42.902443 +0530,
11,30,7,11,1,78,0,120.97092629998224,,120.95920469998964,120.97092629998224,121.9713457999751,121.9713457999751,121.9713457999751,122.508308199991,l,0.5352581999904942,None,304216,001,2024-11-21_14h26.38.076,delay_discounting,2024.1.5,None,2024-11-21 14h26.42.902443 +0530,
27,50,21,11,2,79,2,122.52102999997442,,122.50875379997888,122.52102999997442,123.52075339999283,123.52075339999283,123.52075339999283,127.04080959997373,l,3.514791499997955,None,304216,001,2024-11-21_14h26.38.076,delay_discounting,2024.1.5,None,2024-11-21 14h26.42.902443 +0530,
40,55,62,11,3,80,3,127.05380480000167,,127.04125599999679,127.05380480000167,128.05336549997446,128.05336549997446,128.05336549997446,128.55778350000037,t,0.4994580000056885,None,304216,001,2024-11-21_14h26.38.076,delay_discounting,2024.1.5,None,2024-11-21 14h26.42.902443 +0530,
15,35,13,11,4,81,1,128.57080059999134,,128.55848449998302,128.57080059999134,129.57100629998604,129.57100629998604,129.57100629998604,130.1248240999994,l,0.5495231999957468,None,304216,001,2024-11-21_14h26.38.076,delay_discounting,2024.1.5,None,2024-11-21 14h26.42.902443 +0530,
67,75,119,11,5,82,5,130.13719179999316,,130.1253746000002,130.13719179999316,131.1373495000007,131.1373495000007,131.1373495000007,131.7063592999766,t,0.5552446999936365,None,304216,001,2024-11-21_14h26.38.076,delay_discounting,2024.1.5,None,2024-11-21 14h26.42.902443 +0530,
78,80,162,11,6,83,6,131.71993169997586,,131.70687359999283,131.71993169997586,132.7194314999797,132.7194314999797,132.7194314999797,133.15742249999312,t,0.4327001000056043,None,304216,001,2024-11-21_14h26.38.076,delay_discounting,2024.1.5,None,2024-11-21 14h26.42.902443 +0530,
11,30,7,12,0,84,0,133.16975390000152,,133.15790239998023,133.16975390000152,134.1693378999771,134.1693378999771,134.1693378999771,134.64029299997492,l,0.45593269998789765,None,304216,001,2024-11-21_14h26.38.076,delay_discounting,2024.1.5,None,2024-11-21 14h26.42.902443 +0530,
67,75,119,12,1,85,5,134.65268179998384,,134.64068549999502,134.65268179998384,135.65194309997605,135.65194309997605,135.65194309997605,136.17347359997802,t,0.5079594999842811,None,304216,001,2024-11-21_14h26.38.076,delay_discounting,2024.1.5,None,2024-11-21 14h26.42.902443 +0530,
49,60,89,12,2,86,4,136.18646269998862,,136.17431179998675,136.18646269998862,137.1874140999862,137.1874140999862,137.1874140999862,137.83974840000155,t,0.6411920999817085,None,304216,001,2024-11-21_14h26.38.076,delay_discounting,2024.1.5,None,2024-11-21 14h26.42.902443 +0530,
78,80,162,12,3,87,6,137.85225259998697,,137.8403065999737,137.85225259998697,138.852710999985,138.852710999985,138.852710999985,139.37247419997584,t,0.503767299989704,None,304216,001,2024-11-21_14h26.38.076,delay_discounting,2024.1.5,None,2024-11-21 14h26.42.902443 +0530,
27,50,21,12,4,88,2,139.3862403999956,,139.37303560000146,139.3862403999956,140.38490939998883,140.38490939998883,140.38490939998883,140.95592269999906,l,0.5594561999896541,None,304216,001,2024-11-21_14h26.38.076,delay_discounting,2024.1.5,None,2024-11-21 14h26.42.902443 +0530,
40,55,62,12,5,89,3,140.9686283999763,,140.9563722999883,140.9686283999763,141.96859649999533,141.96859649999533,141.96859649999533,143.6048640999943,t,1.6207631999859586,None,304216,001,2024-11-21_14h26.38.076,delay_discounting,2024.1.5,None,2024-11-21 14h26.42.902443 +0530,
15,35,13,12,6,90,1,143.6183949999977,,143.60534409998218,143.6183949999977,144.6183690999751,144.6183690999751,144.6183690999751,145.37228739997954,l,0.7525521999923512,None,304216,001,2024-11-21_14h26.38.076,delay_discounting,2024.1.5,None,2024-11-21 14h26.42.902443 +0530,
67,75,119,13,0,91,5,145.3845325000002,,145.37271379999584,145.3845325000002,146.38471269997535,146.38471269997535,146.38471269997535,146.90463649999583,t,0.5093361000181176,None,304216,001,2024-11-21_14h26.38.076,delay_discounting,2024.1.5,None,2024-11-21 14h26.42.902443 +0530,
15,35,13,13,1,92,1,146.91832050000085,,146.90508149997913,146.91832050000085,147.9183296999836,147.9183296999836,147.9183296999836,148.38798010000028,l,0.4531389999901876,None,304216,001,2024-11-21_14h26.38.076,delay_discounting,2024.1.5,None,2024-11-21 14h26.42.902443 +0530,
49,60,89,13,2,93,4,148.40121969999745,,148.3883843999938,148.40121969999745,149.4010764999839,149.4010764999839,149.4010764999839,149.8210728999984,t,0.40758820000337437,None,304216,001,2024-11-21_14h26.38.076,delay_discounting,2024.1.5,None,2024-11-21 14h26.42.902443 +0530,
11,30,7,13,3,94,0,149.8345198999741,,149.8214653999894,149.8345198999741,150.83336019999115,150.83336019999115,150.83336019999115,151.3706882999977,l,0.5233996999741066,None,304216,001,2024-11-21_14h26.38.076,delay_discounting,2024.1.5,None,2024-11-21 14h26.42.902443 +0530,
78,80,162,13,4,95,6,151.3845319999964,,151.3711247999745,151.3845319999964,152.7162907999882,152.7162907999882,152.7162907999882,153.271314099984,t,0.544115700002294,None,304216,001,2024-11-21_14h26.38.076,delay_discounting,2024.1.5,None,2024-11-21 14h26.42.902443 +0530,
40,55,62,13,5,96,3,153.2837774999789,,153.27180719998432,153.2837774999789,154.28394259998458,154.28394259998458,154.28394259998458,154.8706098999828,t,0.5848824999993667,None,304216,001,2024-11-21_14h26.38.076,delay_discounting,2024.1.5,None,2024-11-21 14h26.42.902443 +0530,
27,50,21,13,6,97,2,154.8834344999923,,154.87108669997542,154.8834344999923,155.88321139998152,155.88321139998152,155.88321139998152,156.4874509999936,l,0.5965231999871321,None,304216,001,2024-11-21_14h26.38.076,delay_discounting,2024.1.5,None,2024-11-21 14h26.42.902443 +0530,
67,75,119,14,0,98,5,156.50051579999854,,156.4879531999759,156.50051579999854,157.4998524999828,157.4998524999828,157.4998524999828,157.9704660999996,t,0.458272499992745,None,304216,001,2024-11-21_14h26.38.076,delay_discounting,2024.1.5,None,2024-11-21 14h26.42.902443 +0530,
78,80,162,14,1,99,6,157.98351829999592,,157.97089239998604,157.98351829999592,158.98358539998299,158.98358539998299,158.98358539998299,159.369944999984,t,0.3717237999953795,None,304216,001,2024-11-21_14h26.38.076,delay_discounting,2024.1.5,None,2024-11-21 14h26.42.902443 +0530,
15,35,13,14,2,100,1,159.38317849999294,,159.3703842999821,159.38317849999294,160.3826887999894,160.3826887999894,160.3826887999894,160.87021169997752,l,0.4750027999980375,None,304216,001,2024-11-21_14h26.38.076,delay_discounting,2024.1.5,None,2024-11-21 14h26.42.902443 +0530,
27,50,21,14,3,101,2,160.88357179999002,,160.8706171999802,160.88357179999002,161.88216119998833,161.88216119998833,161.88216119998833,162.5199490999803,l,0.6233543999842368,None,304216,001,2024-11-21_14h26.38.076,delay_discounting,2024.1.5,None,2024-11-21 14h26.42.902443 +0530,
11,30,7,14,4,102,0,162.53331959998468,,162.52047979997587,162.53331959998468,163.53370619998896,163.53370619998896,163.53370619998896,164.0691228999931,l,0.5189741999784019,None,304216,001,2024-11-21_14h26.38.076,delay_discounting,2024.1.5,None,2024-11-21 14h26.42.902443 +0530,
49,60,89,14,5,103,4,164.08230829998502,,164.06957179997698,164.08230829998502,165.0822557999927,165.0822557999927,165.0822557999927,165.53515409998363,t,0.4377435000205878,None,304216,001,2024-11-21_14h26.38.076,delay_discounting,2024.1.5,None,2024-11-21 14h26.42.902443 +0530,
40,55,62,14,6,104,3,165.54953069999465,,165.53572980000172,165.54953069999465,166.9155397999857,166.9155397999857,166.9155397999857,167.60181909997482,t,0.6751789999834727,None,304216,001,2024-11-21_14h26.38.076,delay_discounting,2024.1.5,None,2024-11-21 14h26.42.902443 +0530,
